,Sample Num,acc_x,acc_y,acc_z,gyro_x,gyro_y,gyro_z,temp
0,2358.0,-0.11,0.26,0.88,-0.14,5.36,-6.26,29.71
1,2359.0,-0.12,0.25,0.88,0.31,1.63,-7.31,29.71
2,2360.0,-0.12,0.24,0.86,1.57,0.29,-8.11,29.66
3,2361.0,-0.15,0.22,0.87,6.9,-5.24,-5.59,29.66
4,2362.0,-0.17,0.2,0.9,9.04,-7.36,-5.37,29.61
5,2363.0,-0.19,0.19,0.92,7.91,-4.49,-2.35,29.71
6,2364.0,-0.19,0.18,0.92,3.18,-2.46,0.05,29.66
7,2365.0,-0.18,0.19,0.92,-2.09,-1.59,-1.95,29.75
8,2366.0,-0.17,0.21,0.92,-5.24,-1.08,-3.76,29.71
9,2367.0,-0.2,0.2,0.88,-14.26,-2.55,-30.46,29.61
10,2368.0,-0.19,0.25,0.96,-8.95,-9.89,3.07,29.75
11,2369.0,-0.16,0.22,0.94,-3.62,3.39,-5.15,29.66
12,2370.0,-0.19,0.21,0.95,-2.55,0.81,1.21,29.71
13,2371.0,-0.16,0.22,0.94,-4.72,-3.42,-1.1,29.71
14,2372.0,-0.17,0.22,0.97,-7.68,-1.28,1.77,29.57
15,2373.0,-0.15,0.21,0.95,-1.1,1.04,3.13,29.75
16,2374.0,-0.15,0.22,0.95,1.56,-0.26,4.23,29.71
17,2375.0,-0.17,0.24,0.96,0.5,-1.56,6.23,29.66
18,2376.0,-0.16,0.25,0.96,-4.44,1.5,6.32,29.75
19,2377.0,-0.13,0.25,0.92,-4.95,2.99,4.93,29.71
20,2378.0,-0.11,0.24,0.91,0.98,-1.51,4.44,29.8
21,2379.0,-0.13,0.22,0.93,6.09,-4.96,3.07,29.75
22,2380.0,-0.14,0.21,0.93,5.86,-4.12,4.6,29.66
23,2381.0,-0.15,0.2,0.94,-0.61,-2.12,3.4,29.71
24,2382.0,-0.15,0.2,0.92,-6.24,-0.89,3.1,29.71
25,2383.0,-0.13,0.22,0.92,-7.47,-1.07,2.69,29.75
26,2384.0,-0.11,0.25,0.93,-7.66,-1.57,0.12,29.75
27,2385.0,-0.11,0.24,0.93,-4.73,-2.87,2.09,29.71
28,2386.0,-0.1,0.24,0.92,-1.4,-4.08,1.48,29.61
29,2387.0,-0.12,0.2,0.94,3.44,-6.81,3.88,29.71
30,2388.0,-0.14,0.21,0.96,4.38,-6.84,4.98,29.75
31,2389.0,-0.12,0.21,0.95,0.58,-2.12,3.97,29.61
32,2390.0,-0.11,0.22,0.95,-1.33,-2.6,3.91,29.71
33,2391.0,-0.12,0.23,0.95,1.95,-5.57,3.53,29.75
34,2392.0,-0.1,0.21,0.95,5.86,-2.06,3.85,29.75
35,2393.0,-0.13,0.2,0.94,3.92,-1.59,3.07,29.61
36,2394.0,-0.1,0.2,0.93,-1.05,-1.91,2.2,29.61
37,2395.0,-0.11,0.19,0.94,-3.07,-2.35,-0.47,29.66
38,2396.0,-0.11,0.21,0.95,-1.62,-2.79,0.95,29.61
39,2397.0,-0.12,0.21,0.96,0.23,0.29,0.47,29.71
40,2398.0,-0.11,0.22,0.95,-3.79,3.07,-0.27,29.75
41,2399.0,-0.11,0.23,0.94,-5.59,1.39,0.66,29.66
42,2400.0,-0.09,0.24,0.94,-6.35,1.82,0.34,29.71
43,2401.0,-0.09,0.26,0.93,-3.97,2.76,-0.35,29.71
44,2402.0,-0.11,0.24,0.93,-0.06,0.61,1.73,29.8
45,2403.0,-0.1,0.23,0.93,4.03,-0.85,4.0,29.66
46,2404.0,-0.11,0.22,0.94,4.72,-0.96,2.43,29.71
47,2405.0,-0.13,0.22,0.96,1.82,-0.61,1.48,29.61
48,2406.0,-0.12,0.23,0.95,-1.82,1.76,0.72,29.75
49,2407.0,-0.12,0.2,0.94,-1.19,0.81,0.67,29.66
50,2408.0,-0.12,0.2,0.93,-0.09,-0.49,-0.2,29.71
51,2409.0,-0.12,0.22,0.94,-1.25,0.32,-2.23,29.71
52,2410.0,-0.14,0.21,0.97,-1.74,-1.39,-1.48,29.66
53,2411.0,-0.13,0.23,0.97,-0.72,0.81,0.0,29.71
54,2412.0,-0.13,0.21,0.94,1.18,2.82,1.91,29.71
55,2413.0,-0.14,0.21,0.97,3.68,-1.1,4.17,29.66
56,2414.0,-0.13,0.21,0.96,6.06,-0.69,3.15,29.75
57,2415.0,-0.13,0.19,0.94,8.14,0.95,7.08,29.71
58,2416.0,-0.13,0.19,0.96,7.37,-1.07,4.11,29.61
59,2417.0,-0.16,0.21,0.95,2.34,0.11,5.85,29.71
60,2418.0,-0.13,0.22,0.95,-3.27,4.35,4.64,29.75
61,2419.0,-0.13,0.23,0.93,-4.82,3.74,4.03,29.61
62,2420.0,-0.12,0.23,0.93,0.53,1.34,6.85,29.71
63,2421.0,-0.13,0.24,0.95,9.69,-0.34,9.94,29.75
64,2422.0,-0.14,0.22,0.95,15.65,0.14,10.11,29.66
65,2423.0,-0.15,0.2,0.94,13.19,2.37,9.07,29.71
66,2424.0,-0.15,0.2,0.92,4.64,3.91,4.35,29.66
67,2425.0,-0.15,0.18,0.92,-2.21,3.88,5.07,29.66
68,2426.0,-0.14,0.19,0.89,-2.9,4.92,9.28,29.71
69,2427.0,-0.13,0.18,0.87,5.54,4.55,12.92,29.61
70,2428.0,-0.15,0.2,0.88,8.78,2.85,14.18,29.66
71,2429.0,-0.17,0.18,0.84,10.5,3.69,19.07,29.57
72,2430.0,-0.18,0.13,0.82,9.3,3.83,20.66,29.71
73,2431.0,-0.19,0.11,0.8,12.12,1.3,23.47,29.61
74,2432.0,-0.2,0.09,0.78,18.67,1.3,22.76,29.61
75,2433.0,-0.23,0.06,0.76,22.55,2.6,19.76,29.66
76,2434.0,-0.26,-0.0,0.7,21.82,4.81,20.32,29.71
77,2435.0,-0.3,-0.04,0.68,17.34,11.74,20.96,29.61
78,2436.0,-0.35,-0.12,0.64,17.68,17.76,23.1,29.66
79,2437.0,-0.34,-0.19,0.57,22.66,26.89,36.76,29.75
80,2438.0,-0.34,-0.16,0.52,18.05,41.13,57.57,29.71
81,2439.0,-0.28,-0.15,0.34,-3.74,62.17,63.42,29.71
82,2440.0,-0.18,-0.22,0.17,-22.49,73.74,76.17,29.75
83,2441.0,-0.06,-0.23,-0.13,-43.71,68.49,73.88,29.71
84,2442.0,0.09,-0.07,-0.39,-51.18,48.14,83.76,29.71
85,2443.0,0.09,0.04,-0.49,-25.69,24.96,95.59,29.66
86,2444.0,0.06,0.01,-0.62,17.8,14.26,104.0,29.75
87,2445.0,0.03,-0.1,-0.81,56.37,11.8,133.33,29.71
88,2446.0,-0.12,-0.19,-0.93,63.6,3.69,158.17,29.71
89,2447.0,-0.15,-0.14,-1.05,17.59,16.27,144.38,29.61
90,2448.0,-0.27,-0.18,-1.25,-48.06,50.46,158.17,29.75
91,2449.0,-0.09,-0.09,-1.46,-120.99,78.11,120.4,29.71
92,2450.0,0.13,0.11,-1.8,-179.07,87.3,92.72,29.71
93,2451.0,0.46,0.55,-2.01,-218.55,82.26,42.9,29.66
94,2452.0,0.88,0.73,-2.21,-210.18,51.19,0.11,29.66
95,2453.0,1.02,0.77,-2.49,-241.28,3.76,-46.84,29.71
96,2454.0,1.06,0.26,-2.33,-178.75,-81.28,-46.89,29.71
97,2455.0,0.96,-0.26,-1.74,-87.94,-139.42,-58.49,29.66
98,2456.0,0.55,-0.78,-0.76,-3.66,-177.63,-0.18,29.66
99,2457.0,0.65,-0.64,0.22,32.61,-183.95,-11.88,29.71
100,2458.0,0.39,-0.41,1.23,55.01,-240.05,86.14,29.66
101,2459.0,0.54,-0.31,2.32,105.54,-265.45,171.91,29.66
102,2460.0,0.38,-0.31,2.84,124.23,-180.18,214.9,29.61
103,2461.0,0.45,-0.32,2.96,140.09,-121.04,194.11,29.71
104,2462.0,0.61,-0.61,2.94,88.05,-64.09,95.56,29.8
105,2463.0,0.69,-0.08,2.95,-8.21,-57.94,37.51,29.66
106,2464.0,0.8,0.44,3.03,-79.08,-69.63,-74.73,29.61
107,2465.0,0.75,0.57,3.21,-109.27,-61.27,-108.03,29.71
108,2466.0,0.47,-0.05,3.69,-22.56,-49.04,-35.45,29.57
109,2467.0,0.1,0.16,3.96,-19.76,-3.48,1.24,29.75
110,2468.0,0.16,0.57,3.94,-47.36,33.25,-29.08,29.71
111,2469.0,-0.19,0.46,3.83,-50.2,51.66,-39.07,29.71
112,2470.0,0.21,0.17,3.55,2.09,77.21,-46.38,29.66
113,2471.0,-0.06,0.44,3.39,22.03,67.19,-92.56,29.75
114,2472.0,-0.17,0.46,2.92,-50.0,54.05,-95.45,29.71
115,2473.0,0.03,0.39,2.55,-0.64,65.63,-106.52,29.61
116,2474.0,0.05,0.06,2.17,-10.76,76.46,-110.18,29.66
117,2475.0,0.1,-0.12,1.91,-30.24,64.52,-70.81,29.75
118,2476.0,0.07,0.21,1.87,-60.81,17.3,-43.95,29.61
119,2477.0,0.06,0.51,1.85,-42.35,10.93,-36.96,29.61
120,2478.0,0.07,0.68,1.83,-40.06,28.67,-53.1,29.75
121,2479.0,0.11,0.86,1.8,-56.95,33.6,-40.69,29.75
122,2480.0,0.01,0.86,1.59,-79.65,31.37,-23.57,29.71
123,2481.0,0.06,0.75,1.4,-50.2,40.56,-14.49,29.71
124,2482.0,0.02,0.53,1.25,-33.63,47.8,-30.76,29.57
125,2483.0,0.04,0.27,1.13,-17.25,45.19,-25.21,29.61
126,2484.0,-0.04,0.14,1.02,-24.44,45.28,-1.1,29.61
127,2485.0,-0.04,-0.14,0.96,-40.27,31.88,14.84,29.85
128,2486.0,0.05,-0.09,0.95,-27.1,9.44,10.76,29.66
129,2487.0,0.05,0.1,0.94,-19.83,5.31,6.34,29.71
130,2488.0,0.11,0.28,0.92,-17.6,2.63,0.05,29.8
131,2489.0,0.13,0.39,0.91,-1.04,-8.82,-12.5,29.75
132,2490.0,0.06,0.3,0.93,20.03,-1.97,-12.95,29.66
133,2491.0,0.05,0.16,0.86,24.75,9.88,-15.27,29.61
134,2492.0,0.01,0.12,0.92,10.84,1.19,-14.66,29.71
135,2493.0,-0.01,-0.0,0.93,-4.41,-0.02,-14.63,29.61
136,2494.0,-0.08,-0.11,0.99,-9.98,7.47,-1.95,29.66
137,2495.0,-0.05,-0.09,1.0,-17.74,7.56,0.6,29.71
138,2496.0,-0.11,-0.17,1.05,-13.39,4.96,11.91,29.61
139,2497.0,-0.11,-0.18,1.08,-7.71,6.44,16.15,29.57
140,2498.0,-0.05,-0.11,1.02,-2.18,7.02,13.65,29.66
141,2499.0,-0.01,0.0,0.98,-0.26,2.2,10.0,29.71
142,2500.0,0.02,0.07,0.99,7.07,-2.49,6.56,29.52
143,2501.0,0.04,0.16,1.01,13.37,-4.49,-0.27,29.66
144,2502.0,0.02,0.19,1.04,19.05,-3.91,-3.56,29.61
145,2503.0,0.0,0.2,1.05,16.56,-2.31,-9.36,29.61
146,2504.0,-0.02,0.19,1.04,11.24,-0.23,-14.76,29.66
147,2505.0,0.01,0.11,0.98,5.85,7.54,-19.42,29.66
148,2506.0,-0.0,0.03,0.94,0.85,7.54,-11.53,29.61
149,2507.0,-0.0,-0.02,0.9,-2.79,1.94,-4.21,29.71
150,2508.0,0.01,-0.03,0.89,-5.56,0.82,-1.5,29.71
151,2509.0,0.08,0.04,0.92,-8.0,-2.5,6.98,29.66
152,2510.0,-0.02,0.03,0.94,0.4,-11.19,-1.4,29.61
153,2511.0,-0.03,0.1,0.98,12.44,-9.97,-0.47,29.71
154,2512.0,-0.06,0.08,1.03,21.85,-3.74,-3.01,29.66
155,2513.0,-0.06,0.01,0.98,20.03,1.02,-3.48,29.75
156,2514.0,-0.08,-0.04,0.98,9.44,-3.19,-4.53,29.71
157,2515.0,-0.06,-0.05,0.97,2.2,-8.26,-6.66,29.61
158,2516.0,-0.08,-0.03,0.97,1.33,-7.02,-0.29,29.75
159,2517.0,-0.08,-0.04,0.96,0.03,-4.96,-0.35,29.57
160,2518.0,-0.09,0.01,1.01,-5.01,-7.74,1.13,29.61
161,2519.0,-0.07,0.09,1.02,-11.92,-4.92,-0.69,29.71
162,2520.0,-0.03,0.14,0.99,-9.89,0.14,1.22,29.66
163,2521.0,-0.02,0.15,1.01,-3.39,1.39,-4.32,29.66
164,2522.0,-0.02,0.12,1.0,2.95,2.49,-10.84,29.71
165,2523.0,-0.04,0.07,0.97,4.44,7.31,-8.93,29.71
166,2524.0,-0.04,0.0,0.95,-0.55,8.67,-8.79,29.61
167,2525.0,-0.06,0.01,0.95,-1.56,0.7,-2.32,29.66
168,2526.0,-0.04,-0.05,0.93,5.16,-1.19,4.17,29.71
169,2527.0,-0.06,-0.04,0.95,7.91,-0.41,9.94,29.61
170,2528.0,-0.07,-0.02,0.98,6.24,-2.14,11.77,29.66
171,2529.0,-0.05,0.06,1.0,1.66,0.38,9.31,29.75
172,2530.0,-0.04,0.04,0.98,4.55,5.95,8.35,29.71
173,2531.0,-0.03,0.03,0.98,6.84,4.92,7.05,29.66
174,2532.0,-0.02,0.05,0.98,9.91,0.66,7.77,29.66
175,2533.0,-0.06,0.06,0.98,1.31,2.72,1.85,29.61
176,2534.0,-0.04,0.04,0.98,-7.4,5.08,-2.38,29.61
177,2535.0,-0.07,0.05,1.0,-12.63,2.78,-5.05,29.66
178,2536.0,-0.05,0.04,0.97,-10.72,4.79,-8.11,29.66
179,2537.0,-0.03,0.02,0.96,-0.69,8.56,-7.08,29.71
180,2538.0,-0.03,0.03,0.97,-0.23,5.98,-7.28,29.71
181,2539.0,-0.04,0.03,0.97,5.68,3.76,-0.35,29.71
182,2540.0,-0.05,0.01,0.96,8.35,7.47,0.89,29.57
183,2541.0,-0.03,0.02,0.95,8.61,8.06,3.6,29.71
184,2542.0,-0.01,-0.01,0.93,6.35,5.1,6.02,29.71
185,2543.0,0.0,0.01,0.91,2.95,0.7,8.52,29.66
186,2544.0,0.01,0.01,0.93,6.75,-2.98,11.05,29.66
187,2545.0,0.0,0.04,0.96,6.81,-3.53,5.97,29.61
188,2546.0,-0.01,0.06,0.98,3.6,-2.06,2.85,29.61
189,2547.0,-0.01,0.09,1.0,-4.14,0.17,-3.39,29.66
190,2548.0,0.0,0.09,1.0,-5.94,0.08,-5.51,29.66
191,2549.0,-0.01,0.07,1.01,0.03,0.6,-4.81,29.71
192,2550.0,-0.02,0.03,1.0,4.87,2.14,-0.38,29.71
193,2551.0,-0.02,-0.0,0.98,1.63,4.5,-0.37,29.66
194,2552.0,-0.03,-0.01,0.95,-4.52,2.6,0.26,29.66
195,2553.0,0.0,-0.01,0.96,-7.24,0.41,-0.11,29.71
196,2554.0,-0.01,0.03,0.97,-5.74,-0.75,1.77,29.71
197,2555.0,0.01,0.11,0.98,-3.28,-0.6,2.56,29.75
198,2556.0,0.01,0.09,0.96,3.66,1.77,5.02,29.66
199,2557.0,0.01,0.08,0.97,5.86,2.24,0.18,29.61
200,2558.0,0.0,0.1,0.95,4.26,0.21,1.08,29.71
201,2559.0,-0.01,0.05,0.95,2.35,2.41,0.52,29.57
202,2560.0,-0.0,0.02,0.93,-3.6,2.67,-0.63,29.61
203,2561.0,-0.01,0.03,0.94,-10.79,-0.44,-1.97,29.61
204,2562.0,-0.01,0.03,0.94,-14.26,-2.6,-2.03,29.75
205,2563.0,-0.03,0.02,0.98,-9.83,-3.79,2.38,29.66
206,2564.0,-0.05,0.06,1.04,0.2,-2.79,5.54,29.61
207,2565.0,-0.05,0.06,1.02,4.44,4.73,2.14,29.61
208,2566.0,-0.02,0.05,0.98,-0.76,7.89,-3.24,29.66
209,2567.0,-0.02,0.01,0.95,-5.76,2.34,-6.7,29.57
210,2568.0,-0.02,-0.01,0.91,-5.79,-0.14,-2.96,29.71
211,2569.0,-0.03,-0.03,0.91,-1.5,-1.1,3.3,29.61
212,2570.0,-0.04,0.0,0.94,2.29,-6.41,9.08,29.61
213,2571.0,-0.06,0.03,0.98,5.83,-8.9,14.31,29.66
214,2572.0,-0.04,0.09,0.99,6.87,-4.46,14.58,29.61
215,2573.0,-0.04,0.11,1.0,8.49,-2.75,11.86,29.71
216,2574.0,-0.05,0.1,1.0,3.88,0.55,4.7,29.57
217,2575.0,-0.05,0.07,0.99,-2.03,4.0,0.55,29.66
218,2576.0,-0.04,0.06,0.96,-5.54,3.15,0.14,29.61
219,2577.0,-0.04,0.07,0.95,-0.61,-1.59,2.61,29.71
220,2578.0,-0.04,0.05,0.97,7.47,-2.52,4.03,29.66
221,2579.0,-0.06,0.05,0.99,5.95,-1.08,2.27,29.57
222,2580.0,-0.06,0.09,1.01,-0.53,0.02,0.6,29.71
223,2581.0,-0.04,0.09,1.0,-2.7,2.44,-0.92,29.66
224,2582.0,-0.03,0.06,0.98,0.6,5.74,-0.64,29.66
225,2583.0,-0.04,0.05,0.98,1.89,5.51,-0.47,29.61
226,2584.0,-0.04,0.05,0.96,0.18,5.01,1.92,29.61
227,2585.0,-0.03,0.03,0.96,-1.13,6.38,0.4,29.61
228,2586.0,-0.02,0.05,0.94,-2.15,4.24,-3.45,29.66
229,2587.0,-0.02,0.04,0.95,-0.09,1.51,-3.51,29.71
230,2588.0,-0.02,0.03,0.95,2.32,-0.09,-1.63,29.61
231,2589.0,-0.02,0.02,0.94,3.76,-1.69,-1.42,29.66
232,2590.0,-0.04,0.02,0.97,5.62,-3.44,-1.08,29.66
233,2591.0,-0.04,0.05,1.0,5.98,-2.72,-0.84,29.61
234,2592.0,-0.03,0.03,0.98,7.65,2.26,1.27,29.71
235,2593.0,-0.04,0.02,0.98,4.99,2.73,-1.1,29.66
236,2594.0,-0.04,0.02,0.98,2.05,0.34,-1.31,29.66
237,2595.0,-0.03,0.06,0.99,1.28,0.72,-2.17,29.71
238,2596.0,-0.03,0.07,0.99,3.05,3.89,-3.91,29.71
239,2597.0,-0.03,0.03,0.97,1.45,5.79,-4.09,29.57
240,2598.0,-0.03,0.02,0.96,-4.29,3.62,-4.44,29.66
241,2599.0,-0.02,0.0,0.95,-6.53,1.44,-3.73,29.61
242,2600.0,-0.02,0.0,0.94,-2.29,-0.46,0.23,29.71
243,2601.0,-0.04,0.01,0.97,7.28,-0.99,6.55,29.71
244,2602.0,-0.05,0.01,0.98,7.89,2.17,5.63,29.66
245,2603.0,-0.03,0.06,0.98,0.78,2.79,5.28,29.61
246,2604.0,-0.02,0.09,0.97,0.18,-0.24,4.37,29.61
247,2605.0,-0.01,0.08,0.95,6.52,1.79,3.24,29.66
248,2606.0,-0.0,0.05,0.93,5.77,4.0,0.63,29.66
249,2607.0,-0.02,0.02,0.93,-0.63,-0.34,-0.53,29.71
250,2608.0,-0.03,0.02,0.95,-2.35,-4.66,2.6,29.71
251,2609.0,-0.03,0.01,0.97,2.52,-2.93,3.71,29.66
252,2610.0,-0.05,0.01,0.98,2.78,-2.38,3.05,29.57
253,2611.0,-0.04,0.08,0.99,-4.23,-3.83,1.25,29.71
254,2612.0,-0.03,0.12,1.01,-6.76,-1.47,0.29,29.61
255,2613.0,-0.03,0.07,0.99,-3.98,3.6,-3.63,29.66
256,2614.0,-0.04,0.05,0.99,-5.56,4.53,-5.98,29.57
257,2615.0,-0.03,0.03,0.96,-5.6,2.46,-3.85,29.71
258,2616.0,-0.03,0.0,0.94,-3.63,0.02,-1.34,29.71
259,2617.0,-0.04,0.01,0.96,-0.93,-2.08,-0.24,29.66
260,2618.0,-0.03,0.02,0.96,0.73,-2.78,5.88,29.61
261,2619.0,-0.04,0.02,0.98,0.14,-2.35,5.91,29.71
262,2620.0,-0.05,0.07,1.01,-1.15,-3.92,2.79,29.66
263,2621.0,-0.04,0.09,1.02,-2.27,-1.02,0.78,29.75
264,2622.0,-0.03,0.1,1.0,-1.48,3.02,0.46,29.61
265,2623.0,-0.02,0.07,0.98,1.71,3.57,-2.0,29.71
266,2624.0,-0.03,0.08,0.98,-0.78,2.87,-5.08,29.66
267,2625.0,-0.01,0.07,0.97,-2.15,2.87,-4.37,29.66
268,2626.0,-0.02,0.07,0.96,-2.95,1.94,-5.04,29.71
269,2627.0,0.03,0.01,0.95,-3.1,1.45,-19.71,29.61
270,2628.0,-0.09,0.15,1.03,-0.76,-2.95,2.96,29.66
271,2629.0,-0.02,0.04,1.01,5.37,3.66,1.65,29.66
272,2630.0,-0.05,0.05,1.01,3.74,6.5,-0.09,29.61
273,2631.0,-0.03,0.03,0.97,1.08,4.08,-3.27,29.71
274,2632.0,-0.03,0.04,0.96,-1.33,4.43,-1.11,29.61
275,2633.0,-0.02,0.0,0.93,1.53,4.23,-0.43,29.75
276,2634.0,-0.03,0.01,0.94,3.13,1.16,4.02,29.71
277,2635.0,-0.03,0.02,0.95,0.93,0.29,2.35,29.61
278,2636.0,-0.03,0.02,0.96,-1.59,1.56,3.39,29.66
279,2637.0,-0.03,0.04,0.96,1.04,0.67,5.79,29.66
280,2638.0,-0.02,0.04,0.95,3.42,0.56,4.37,29.61
281,2639.0,-0.04,0.04,0.97,3.37,-0.52,3.89,29.61
282,2640.0,-0.04,0.05,0.97,1.45,0.08,3.08,29.66
283,2641.0,-0.03,0.05,0.97,-0.63,0.9,2.95,29.57
284,2642.0,-0.01,0.07,0.96,-1.37,-1.6,1.19,29.8
285,2643.0,-0.0,0.1,0.95,0.81,-3.92,3.45,29.61
286,2644.0,0.01,0.11,0.94,3.73,-4.5,0.0,29.66
287,2645.0,-0.01,0.11,0.96,6.56,-4.5,0.66,29.71
288,2646.0,-0.01,0.07,0.95,5.56,-2.37,-3.05,29.71
289,2647.0,-0.03,0.03,0.96,0.63,-2.12,-4.55,29.71
290,2648.0,-0.03,-0.01,0.96,-1.66,-3.65,-3.51,29.75
291,2649.0,-0.04,-0.03,0.97,0.69,-4.98,0.56,29.71
292,2650.0,-0.05,-0.02,0.99,4.93,-4.43,8.18,29.71
293,2651.0,-0.05,-0.01,0.99,3.18,-2.4,9.45,29.66
294,2652.0,-0.05,0.01,0.99,-1.34,-1.4,9.28,29.75
295,2653.0,-0.04,0.02,0.97,-4.52,-1.08,7.15,29.71
296,2654.0,-0.03,0.04,0.96,-2.72,-1.79,7.44,29.61
297,2655.0,-0.03,0.06,0.95,-0.67,-2.76,5.97,29.75
298,2656.0,-0.02,0.07,0.95,0.18,-4.32,4.95,29.66
299,2657.0,-0.03,0.08,0.97,-0.06,-6.43,2.49,29.71
300,2658.0,-0.05,0.08,0.99,0.81,-6.03,1.34,29.61
301,2659.0,-0.05,0.07,1.01,1.47,-3.44,2.69,29.66
302,2660.0,-0.07,0.06,1.02,2.81,-2.23,4.44,29.66
303,2661.0,-0.06,0.05,1.02,2.92,-1.47,2.46,29.71
304,2662.0,-0.07,0.08,1.04,2.21,1.42,1.59,29.71
305,2663.0,-0.04,0.07,0.98,3.47,6.75,5.45,29.71
306,2664.0,-0.02,0.05,0.95,3.47,6.18,3.45,29.66
307,2665.0,-0.02,0.06,0.96,2.24,1.07,0.69,29.71
308,2666.0,-0.02,0.08,0.96,0.14,1.71,-1.34,29.71
309,2667.0,-0.03,0.03,0.95,2.6,1.88,0.27,29.75
310,2668.0,-0.03,0.05,0.96,3.86,-1.44,1.66,29.66
311,2669.0,-0.03,0.04,0.97,5.44,-1.47,1.95,29.61
312,2670.0,-0.03,0.05,0.97,2.23,0.29,0.32,29.61
313,2671.0,-0.02,0.07,0.98,2.78,-0.67,0.69,29.66
314,2672.0,-0.02,0.08,0.99,6.2,-0.52,0.87,29.66
315,2673.0,-0.02,0.07,0.98,4.93,3.94,-2.26,29.61
316,2674.0,-0.03,0.06,0.97,-0.66,5.31,-4.41,29.61
317,2675.0,-0.02,0.01,0.95,-3.76,2.87,-4.14,29.66
318,2676.0,-0.02,0.02,0.95,1.24,-1.22,1.62,29.66
319,2677.0,-0.03,0.02,0.98,12.37,-3.65,4.9,29.61
320,2678.0,-0.04,0.04,0.98,9.22,0.05,2.41,29.71
321,2679.0,-0.04,0.04,1.0,-0.73,3.34,0.21,29.71
322,2680.0,-0.03,0.03,0.97,-7.73,2.81,-2.37,29.66
323,2681.0,-0.01,0.05,0.96,-5.37,2.78,-3.18,29.71
324,2682.0,-0.03,0.06,0.96,2.76,3.51,2.09,29.61
325,2683.0,-0.03,0.03,0.97,8.87,3.92,3.92,29.66
326,2684.0,-0.04,0.01,0.97,3.74,4.34,3.1,29.66
327,2685.0,-0.03,0.05,0.98,-1.47,1.82,4.81,29.61
328,2686.0,-0.02,0.07,0.95,0.24,1.24,3.85,29.61
329,2687.0,-0.02,0.07,0.95,3.85,3.02,1.22,29.57
330,2688.0,-0.01,0.08,0.92,1.1,3.4,-1.05,29.75
331,2689.0,-0.01,0.07,0.93,-4.18,-0.89,-2.2,29.71
332,2690.0,-0.03,0.05,0.97,-3.98,-2.6,-0.08,29.61
333,2691.0,-0.03,0.05,0.98,0.26,0.75,0.75,29.75
334,2692.0,-0.04,0.04,0.99,1.63,1.31,0.85,29.66
335,2693.0,-0.05,0.07,1.01,0.11,0.29,0.5,29.71
336,2694.0,-0.06,0.06,1.01,-0.53,5.86,-1.02,29.71
337,2695.0,-0.03,0.06,0.97,-0.98,10.15,-1.27,29.66
338,2696.0,-0.01,0.05,0.94,-0.11,6.67,-1.36,29.61
339,2697.0,-0.02,0.02,0.92,2.0,1.74,0.29,29.71
340,2698.0,-0.01,0.03,0.93,1.05,0.03,0.12,29.75
341,2699.0,-0.04,0.04,0.97,-1.8,-0.96,-0.11,29.66
342,2700.0,-0.04,0.05,0.97,-4.46,-1.53,-0.69,29.61
343,2701.0,-0.04,0.06,0.98,-3.15,-1.62,0.44,29.71
344,2702.0,-0.05,0.08,1.01,0.47,-0.44,0.78,29.66
345,2703.0,-0.04,0.09,1.0,1.1,3.28,0.55,29.75
346,2704.0,-0.03,0.07,0.99,0.47,5.91,1.08,29.71
347,2705.0,-0.02,0.06,0.96,1.05,4.69,1.45,29.61
348,2706.0,-0.01,0.06,0.95,2.82,3.48,0.23,29.66
349,2707.0,-0.01,0.03,0.93,3.83,2.37,1.08,29.66
350,2708.0,-0.01,0.05,0.95,0.18,-1.31,0.14,29.71
351,2709.0,-0.03,0.08,0.97,-0.93,-4.29,0.08,29.61
352,2710.0,-0.04,0.07,0.98,-0.08,-1.74,-1.21,29.71
353,2711.0,-0.04,0.08,1.01,-1.8,1.08,-3.08,29.75
354,2712.0,-0.03,0.07,1.01,-1.92,2.31,-2.05,29.71
355,2713.0,-0.04,0.06,0.97,0.84,3.22,-0.55,29.61
356,2714.0,-0.03,0.06,0.95,4.41,1.89,0.26,29.66
357,2715.0,-0.03,0.05,0.96,5.47,0.98,-0.47,29.66
358,2716.0,-0.02,0.06,0.96,3.51,1.82,-0.85,29.61
359,2717.0,-0.01,0.06,0.95,-0.09,1.53,-0.05,29.61
360,2718.0,-0.02,0.05,0.95,-1.36,-0.63,-0.11,29.85
361,2719.0,-0.02,0.04,0.95,-0.98,-1.33,-0.35,29.66
362,2720.0,-0.03,0.04,0.97,-1.07,-1.21,-0.11,29.61
363,2721.0,-0.03,0.03,0.98,-0.17,-0.81,0.29,29.71
364,2722.0,-0.04,0.04,0.98,-0.79,-0.27,0.52,29.75
365,2723.0,-0.04,0.06,0.99,-0.12,0.18,1.76,29.66
366,2724.0,-0.03,0.05,0.97,1.47,1.74,0.9,29.61
367,2725.0,-0.03,0.08,0.96,0.38,0.67,-0.6,29.61
368,2726.0,-0.03,0.07,0.97,-0.98,-0.11,-1.42,29.66
369,2727.0,-0.03,0.06,0.97,-1.21,1.05,-0.49,29.71
370,2728.0,-0.02,0.04,0.96,-1.05,1.56,-1.44,29.61
371,2729.0,-0.02,0.05,0.96,-1.01,-1.56,-1.18,29.57
372,2730.0,-0.03,0.04,0.97,-0.69,-2.52,-1.08,29.66
373,2731.0,-0.04,0.04,0.98,-0.43,-1.02,-0.12,29.71
374,2732.0,-0.05,0.05,1.0,0.23,-0.46,-0.08,29.71
375,2733.0,-0.04,0.05,1.0,0.52,0.35,-0.37,29.66
376,2734.0,-0.04,0.05,0.99,1.95,1.28,-1.04,29.66
377,2735.0,-0.04,0.05,0.99,0.12,2.52,-2.96,29.71
378,2736.0,-0.04,0.06,0.98,-2.93,2.79,-4.05,29.61
379,2737.0,-0.02,0.03,0.96,-3.8,2.73,-4.49,29.57
380,2738.0,-0.03,0.02,0.96,-3.08,0.9,-3.24,29.66
381,2739.0,-0.02,0.04,0.97,1.21,-1.8,1.04,29.71
382,2740.0,-0.02,0.03,0.96,3.37,-0.96,1.65,29.61
383,2741.0,-0.04,0.06,0.97,1.94,-0.64,0.81,29.61
384,2742.0,-0.03,0.08,0.99,-1.51,-0.58,-0.31,29.66
385,2743.0,-0.02,0.09,0.98,0.35,1.92,0.76,29.71
386,2744.0,-0.02,0.06,0.96,2.49,4.23,-1.11,29.61
387,2745.0,-0.01,0.05,0.94,0.87,1.48,-2.17,29.66
388,2746.0,-0.02,0.04,0.96,0.24,-1.53,-1.83,29.75
389,2747.0,-0.02,0.02,0.96,1.05,-1.54,-1.18,29.71
390,2748.0,-0.02,0.04,0.98,-0.84,-0.18,-2.18,29.61
391,2749.0,-0.03,0.02,0.96,-3.97,1.36,-0.82,29.75
392,2750.0,-0.03,0.01,0.95,-6.02,-0.37,0.24,29.66
393,2751.0,-0.02,0.05,0.96,-5.56,-1.47,-0.76,29.71
394,2752.0,-0.02,0.07,0.95,-3.36,-1.59,0.18,29.71
395,2753.0,-0.03,0.06,0.97,-0.12,-2.34,-0.41,29.66
396,2754.0,-0.04,0.06,0.98,-0.84,-2.38,-1.73,29.66
397,2755.0,-0.05,0.07,0.99,-1.48,-1.86,-1.37,29.71
398,2756.0,-0.05,0.04,0.99,-0.69,-1.37,-1.68,29.71
399,2757.0,-0.05,0.05,1.0,2.09,-1.79,-1.05,29.66
400,2758.0,-0.07,0.03,1.0,3.89,-0.64,1.24,29.71
