,Sample Num,acc_x,acc_y,acc_z,gyro_x,gyro_y,gyro_z,temp
0,44.0,-0.26,2.95,28.86,,,,
1,2824.0,0.16,0.1,0.96,0.72,-0.66,2.75,28.86
2,2825.0,0.16,0.1,0.97,0.18,-0.56,1.83,28.91
3,2826.0,0.16,0.11,0.98,-0.17,0.17,2.55,28.91
4,2827.0,0.16,0.1,0.97,-0.09,1.82,1.71,28.86
5,2828.0,0.16,0.11,0.97,0.75,2.09,2.09,28.86
6,2829.0,0.16,0.11,0.97,0.67,2.2,3.39,28.91
7,2830.0,0.16,0.1,0.95,0.44,2.92,1.74,28.81
8,2831.0,0.16,0.1,0.94,1.69,1.15,2.43,28.86
9,2832.0,0.16,0.08,0.94,4.17,0.66,2.96,28.86
10,2833.0,0.16,0.09,0.95,1.63,1.82,1.22,28.86
11,2834.0,0.16,0.1,0.94,-3.02,1.48,-0.21,28.81
12,2835.0,0.16,0.11,0.97,-5.07,-1.07,0.55,28.81
13,2836.0,0.16,0.11,0.97,-2.18,-0.24,2.41,28.86
14,2837.0,0.16,0.09,0.96,2.14,2.6,2.02,28.86
15,2838.0,0.16,0.1,0.96,2.95,2.96,1.74,28.86
16,2839.0,0.15,0.09,0.95,0.43,1.86,1.13,28.91
17,2840.0,0.15,0.09,0.95,-3.5,0.41,0.24,28.86
18,2841.0,0.16,0.1,0.94,-3.83,0.03,1.45,28.86
19,2842.0,0.16,0.11,0.95,0.23,-1.04,3.1,28.95
20,2843.0,0.16,0.1,0.95,3.65,-0.93,1.71,28.91
21,2844.0,0.16,0.08,0.96,5.36,-2.21,2.06,28.91
22,2845.0,0.15,0.09,0.96,2.99,-3.25,1.13,28.86
23,2846.0,0.15,0.09,0.98,-1.47,-1.71,-0.46,28.86
24,2847.0,0.15,0.1,0.98,-4.72,0.24,-1.13,28.81
25,2848.0,0.16,0.1,0.97,-4.53,0.32,-0.69,28.91
26,2849.0,0.16,0.1,0.97,-1.71,0.05,-0.43,28.86
27,2850.0,0.16,0.1,0.97,0.89,-0.99,-1.34,28.86
28,2851.0,0.16,0.08,0.96,1.36,-0.06,-1.66,28.72
29,2852.0,0.16,0.09,0.97,-0.76,0.27,-0.32,28.81
30,2853.0,0.16,0.1,0.97,-4.12,0.78,-1.18,28.91
31,2854.0,0.17,0.1,0.96,-4.56,0.47,-0.49,28.86
32,2855.0,0.16,0.11,0.96,-2.02,-0.72,0.34,28.86
33,2856.0,0.15,0.1,0.97,2.02,-0.47,1.34,28.86
34,2857.0,0.15,0.11,0.97,4.55,1.04,1.85,28.91
35,2858.0,0.15,0.1,0.96,3.53,1.89,1.69,28.86
36,2859.0,0.16,0.1,0.95,1.62,0.09,0.64,28.86
37,2860.0,0.16,0.09,0.95,0.72,-2.34,0.15,28.91
38,2861.0,0.14,0.09,0.97,1.25,-2.41,0.63,28.81
39,2862.0,0.15,0.08,0.95,2.37,-0.12,0.46,28.86
40,2863.0,0.16,0.09,0.95,1.51,-0.27,1.15,28.86
41,2864.0,0.15,0.09,0.96,1.1,-1.89,0.75,28.86
42,2865.0,0.14,0.1,0.98,-0.15,-2.44,2.43,28.81
43,2866.0,0.14,0.1,0.97,2.4,0.84,5.04,28.91
44,2867.0,0.14,0.08,0.96,3.69,2.66,5.37,28.86
45,2868.0,0.16,0.08,0.95,2.85,1.22,4.32,28.86
46,2869.0,0.17,0.09,0.96,-1.47,0.53,1.01,28.91
47,2870.0,0.17,0.1,0.94,-3.82,-0.82,-0.73,28.91
48,2871.0,0.16,0.1,0.96,-1.48,-2.7,0.41,28.86
49,2872.0,0.16,0.09,0.96,2.06,-0.76,0.84,28.95
50,2873.0,0.16,0.09,0.96,1.89,1.68,1.04,28.86
51,2874.0,0.16,0.1,0.97,-1.36,0.4,0.49,28.91
52,2875.0,0.16,0.11,0.95,-3.98,-0.11,1.54,28.86
53,2876.0,0.18,0.12,0.94,-4.9,0.72,-1.82,28.86
54,2877.0,0.18,0.11,0.92,-3.36,-1.18,-3.16,28.95
55,2878.0,0.18,0.11,0.92,-2.52,-2.75,-4.05,28.91
56,2879.0,0.17,0.1,0.91,-3.77,-3.5,-4.99,28.91
57,2880.0,0.17,0.1,0.93,-4.15,-4.26,-3.54,28.86
58,2881.0,0.16,0.1,0.96,-2.61,-4.85,-1.91,28.95
59,2882.0,0.17,0.1,0.96,0.61,-3.33,-0.34,28.91
60,2883.0,0.16,0.09,0.96,2.82,-2.11,0.9,28.91
61,2884.0,0.17,0.08,0.97,2.98,-3.07,0.82,28.86
62,2885.0,0.16,0.09,0.98,0.17,-1.6,2.69,28.86
63,2886.0,0.17,0.08,0.97,-2.99,-0.2,1.73,28.91
64,2887.0,0.17,0.07,0.96,-2.76,-2.12,0.79,28.91
65,2888.0,0.18,0.08,0.95,-0.31,-1.86,-0.11,28.86
66,2889.0,0.17,0.08,0.98,1.22,-2.02,-0.03,28.95
67,2890.0,0.16,0.09,0.99,1.56,-2.99,0.78,28.77
68,2891.0,0.16,0.09,1.0,1.24,0.03,3.51,28.81
69,2892.0,0.18,0.09,0.97,-1.01,4.15,0.24,28.95
70,2893.0,0.17,0.08,0.96,-4.14,3.22,-1.6,28.86
71,2894.0,0.18,0.09,0.94,-4.06,0.44,-3.1,28.91
72,2895.0,0.16,0.09,0.95,-6.73,0.7,-4.87,28.81
73,2896.0,0.16,0.09,0.98,-2.63,-0.11,-1.02,28.91
74,2897.0,0.15,0.1,0.99,-4.69,0.98,-4.58,28.95
75,2898.0,0.15,0.1,0.99,-10.2,2.63,-7.48,28.86
76,2899.0,0.13,0.09,1.01,-18.26,1.1,-12.99,28.91
77,2900.0,0.08,0.08,1.0,-13.4,-1.69,-4.47,28.91
78,2901.0,0.05,0.06,1.0,1.8,-2.03,-0.76,28.95
79,2902.0,0.0,0.07,1.0,11.57,2.02,-1.95,28.95
80,2903.0,-0.1,0.02,0.98,22.0,-2.14,0.43,28.91
81,2904.0,-0.1,0.09,1.03,13.63,-8.18,3.94,28.91
82,2905.0,-0.2,0.0,1.03,19.37,-8.58,9.5,28.86
83,2906.0,-0.26,-0.04,1.01,19.54,-9.69,11.62,28.95
84,2907.0,-0.38,-0.05,1.09,22.53,-17.92,17.86,28.86
85,2908.0,-0.49,-0.09,1.13,26.27,-23.04,23.16,28.91
86,2909.0,-0.56,-0.08,1.19,15.56,-22.99,24.85,28.86
87,2910.0,-0.69,-0.1,1.25,4.03,-24.73,34.95,28.86
88,2911.0,-0.73,-0.12,1.3,-3.45,-27.97,41.69,28.91
89,2912.0,-0.78,-0.17,1.34,2.26,-29.42,44.67,28.81
90,2913.0,-0.83,-0.3,1.33,26.12,-30.76,56.61,28.81
91,2914.0,-0.83,-0.32,1.43,41.04,-35.3,68.6,28.77
92,2915.0,-0.88,-0.44,1.38,43.57,-31.73,79.65,28.86
93,2916.0,-0.9,-0.42,1.45,37.24,-28.55,111.57,28.91
94,2917.0,-0.95,-0.41,1.41,30.82,-19.02,126.14,28.91
95,2918.0,-1.01,-0.39,1.33,25.89,-13.25,148.7,28.95
96,2919.0,-1.03,-0.31,1.25,26.03,-14.84,160.85,28.86
97,2920.0,-1.06,-0.24,1.25,29.45,-23.13,167.07,28.91
98,2921.0,-1.0,-0.11,1.32,27.22,-23.94,167.95,28.91
99,2922.0,-0.87,-0.19,1.28,36.58,-24.53,165.65,28.77
100,2923.0,-0.75,-0.41,1.27,79.57,-41.98,176.09,28.77
101,2924.0,-0.77,-0.83,1.22,132.85,-48.05,188.63,28.86
102,2925.0,-0.81,-0.98,1.27,161.48,-36.64,207.63,28.91
103,2926.0,-0.89,-0.86,1.31,133.07,-7.39,225.13,28.86
104,2927.0,-0.85,-0.8,1.28,59.56,35.79,224.21,28.86
105,2928.0,-0.64,-0.46,0.99,-35.48,66.09,237.33,28.86
106,2929.0,-0.69,-0.31,0.79,-113.71,73.66,231.37,28.81
107,2930.0,-0.34,-0.15,0.59,-142.55,85.22,224.34,28.81
108,2931.0,0.11,-0.22,0.31,-116.96,87.95,206.34,28.86
109,2932.0,0.5,-0.35,0.06,-42.6,57.24,204.23,28.77
110,2933.0,0.8,-0.63,0.15,58.99,33.91,213.24,28.91
111,2934.0,1.36,-0.81,0.19,71.79,64.63,199.98,28.91
112,2935.0,1.79,-1.0,0.06,26.41,81.77,177.98,28.95
113,2936.0,1.77,-1.23,0.01,-51.33,15.62,157.34,28.86
114,2937.0,1.98,-0.67,0.25,-57.45,-46.06,188.49,28.91
115,2938.0,2.16,-0.28,0.35,-65.88,-15.63,156.76,28.81
116,2939.0,2.32,-0.08,0.4,-40.06,-8.47,134.26,28.86
117,2940.0,2.4,-0.16,0.47,43.27,-36.72,107.6,28.86
118,2941.0,2.28,-0.39,0.48,92.7,-51.82,89.63,28.86
119,2942.0,2.09,-0.63,0.69,124.02,-49.45,99.63,28.91
120,2943.0,1.9,-0.59,1.04,91.08,-26.63,96.99,28.81
121,2944.0,1.81,-0.33,1.28,13.98,8.03,89.08,28.95
122,2945.0,1.62,-0.13,1.3,-80.58,27.4,76.5,28.77
123,2946.0,1.52,0.23,1.33,-135.25,38.44,56.03,28.81
124,2947.0,1.4,0.39,1.17,-136.53,44.61,18.53,28.81
125,2948.0,1.2,0.52,1.02,-78.92,26.06,22.46,28.95
126,2949.0,1.14,0.43,0.92,-3.21,11.21,14.46,28.86
127,2950.0,0.98,0.24,0.76,66.63,4.61,21.86,28.81
128,2951.0,0.72,-0.01,0.84,157.91,-70.81,31.1,28.81
129,2952.0,0.65,-0.05,0.89,221.95,-58.11,43.08,28.86
130,2953.0,0.45,-0.09,1.11,202.06,-31.54,28.6,28.86
131,2954.0,0.4,-0.07,1.25,135.25,-17.34,6.38,28.77
132,2955.0,0.36,-0.1,1.29,46.81,-8.87,6.92,28.81
133,2956.0,0.41,-0.14,1.28,-12.85,-0.93,6.14,28.81
134,2957.0,0.38,-0.13,1.17,-35.1,10.61,-1.73,28.77
135,2958.0,0.34,-0.14,1.09,-33.25,20.11,-5.21,28.77
136,2959.0,0.31,-0.1,1.03,-33.77,27.91,-7.21,28.86
137,2960.0,0.31,-0.14,0.95,-47.08,29.24,-6.52,28.91
138,2961.0,0.32,-0.1,0.91,-64.84,28.66,-8.29,28.77
139,2962.0,0.32,-0.06,0.88,-82.43,27.76,-11.79,28.86
140,2963.0,0.3,-0.01,0.86,-84.11,25.15,-10.53,28.91
141,2964.0,0.32,0.04,0.82,-61.95,18.6,-6.56,28.91
142,2965.0,0.34,0.05,0.81,-28.06,12.0,-2.7,28.86
143,2966.0,0.32,0.07,0.8,9.22,6.35,1.05,28.77
144,2967.0,0.29,0.06,0.79,36.67,2.78,3.51,28.81
145,2968.0,0.24,0.03,0.78,45.51,-2.61,4.76,28.81
146,2969.0,0.21,-0.01,0.8,43.65,-8.44,1.3,28.81
147,2970.0,0.2,-0.0,0.81,35.59,-7.89,1.95,28.86
148,2971.0,0.22,0.01,0.83,21.69,-4.4,-0.05,28.77
149,2972.0,0.25,0.04,0.87,9.19,-6.44,-1.71,28.81
150,2973.0,0.25,0.07,0.92,-3.27,-8.09,-4.93,28.91
151,2974.0,0.27,0.07,0.93,-11.33,-6.08,-9.51,28.86
152,2975.0,0.23,0.02,0.92,-2.06,-10.23,-6.69,28.86
153,2976.0,0.23,-0.01,0.94,9.56,-12.9,-5.47,28.77
154,2977.0,0.21,0.0,0.97,17.92,-11.24,-3.1,28.81
155,2978.0,0.2,-0.02,0.98,21.73,-8.89,-1.16,28.86
156,2979.0,0.22,-0.04,0.98,21.45,-6.67,4.15,28.77
157,2980.0,0.23,-0.06,0.96,14.99,-4.93,2.85,28.91
158,2981.0,0.23,-0.07,0.97,6.98,-5.76,2.76,28.81
159,2982.0,0.24,-0.05,0.98,0.24,-6.14,2.85,28.95
160,2983.0,0.23,-0.03,0.96,-4.73,-4.31,1.62,28.86
161,2984.0,0.23,0.03,0.99,-10.82,-4.84,-0.58,28.86
162,2985.0,0.24,0.02,1.01,-16.6,-3.57,-4.06,29.0
163,2986.0,0.24,0.01,1.02,-16.95,-1.57,-2.49,28.72
164,2987.0,0.24,-0.02,1.01,-12.41,-1.8,1.82,28.77
165,2988.0,0.26,-0.01,0.98,-5.42,1.21,7.3,28.95
166,2989.0,0.28,-0.01,0.96,-0.03,1.19,7.04,28.81
167,2990.0,0.28,0.03,0.95,4.4,-1.97,8.23,28.91
168,2991.0,0.28,0.04,0.95,4.7,-0.58,6.37,28.86
169,2992.0,0.26,0.06,0.95,3.05,1.19,5.07,28.86
170,2993.0,0.26,0.08,0.93,-1.04,0.4,2.18,28.86
171,2994.0,0.28,0.07,0.9,-3.74,-0.41,2.61,28.81
172,2995.0,0.29,0.06,0.89,-1.66,-3.63,3.18,28.86
173,2996.0,0.26,0.05,0.91,2.44,-5.56,2.64,28.77
174,2997.0,0.29,0.04,0.92,2.72,-3.22,-1.97,28.86
175,2998.0,0.26,0.03,0.92,1.01,-5.19,-2.29,28.81
176,2999.0,0.26,0.03,0.94,0.44,-7.13,-1.88,28.81
177,3000.0,0.26,0.04,0.92,-2.46,-2.9,-2.81,28.95
178,3001.0,0.26,0.03,0.92,-2.24,-2.98,-0.08,28.86
179,3002.0,0.27,0.03,0.94,-0.41,-5.66,-0.44,28.91
180,3003.0,0.27,0.02,0.95,0.34,-4.17,-0.46,28.91
181,3004.0,0.27,0.02,0.96,2.85,-4.89,0.34,28.86
182,3005.0,0.27,0.01,0.97,4.87,-5.97,1.31,28.86
183,3006.0,0.26,0.03,0.99,-0.27,-2.23,-1.45,28.77
184,3007.0,0.24,0.03,0.99,-7.82,0.44,1.89,28.81
185,3008.0,0.25,0.03,0.98,-11.15,0.46,2.76,28.72
186,3009.0,0.26,0.02,0.96,-9.11,1.85,3.86,28.86
187,3010.0,0.27,0.02,0.93,-3.15,2.2,5.18,28.77
188,3011.0,0.27,0.02,0.92,0.27,-0.7,4.7,28.77
189,3012.0,0.26,0.01,0.9,1.34,-3.07,4.95,28.81
190,3013.0,0.27,0.01,0.9,-0.95,-4.0,4.14,28.86
191,3014.0,0.27,0.01,0.91,-1.6,-5.85,1.51,28.77
192,3015.0,0.28,0.02,0.94,-0.6,-7.21,1.13,28.81
193,3016.0,0.28,0.04,0.98,0.75,-6.85,0.23,28.91
194,3017.0,0.28,0.04,1.0,-1.15,-1.74,-0.96,28.95
195,3018.0,0.27,0.02,0.99,-2.55,1.5,-0.61,28.86
196,3019.0,0.28,0.03,0.96,-3.85,2.49,0.52,28.81
197,3020.0,0.3,0.02,0.9,-4.7,3.02,0.95,28.81
198,3021.0,0.31,0.02,0.89,-2.12,-2.99,1.05,28.91
199,3022.0,0.3,0.03,0.9,2.26,-8.08,-0.4,28.86
200,3023.0,0.31,0.03,0.93,5.11,-6.47,0.08,28.95
201,3024.0,0.29,0.04,0.95,4.35,-4.73,-2.0,28.91
202,3025.0,0.29,0.04,0.96,-0.84,-4.29,-2.35,28.91
203,3026.0,0.29,0.04,0.96,-6.03,-3.24,-2.99,28.86
204,3027.0,0.29,0.02,0.95,-7.83,-2.53,-4.81,28.86
205,3028.0,0.3,0.02,0.95,-4.14,-2.38,-4.64,28.95
206,3029.0,0.31,0.0,0.93,1.56,-3.65,-3.86,28.91
207,3030.0,0.28,-0.01,0.95,3.89,-3.86,-1.66,28.95
208,3031.0,0.27,-0.01,0.95,0.47,-1.95,0.84,28.95
209,3032.0,0.27,-0.01,0.96,-5.44,0.18,0.75,28.86
210,3033.0,0.28,0.01,0.95,-9.57,0.27,1.77,28.91
211,3034.0,0.29,0.01,0.95,-9.28,1.3,1.19,28.91
212,3035.0,0.29,0.0,0.94,-5.76,0.55,-1.48,28.77
213,3036.0,0.29,0.01,0.95,0.14,-1.44,1.21,28.86
214,3037.0,0.28,-0.0,0.96,3.88,-0.09,0.44,28.91
215,3038.0,0.27,-0.01,0.96,5.86,0.43,2.87,28.91
216,3039.0,0.28,-0.01,0.95,7.85,1.53,3.83,28.95
217,3040.0,0.27,-0.01,0.93,4.92,2.69,3.07,28.77
218,3041.0,0.27,0.01,0.93,0.72,2.73,2.75,28.81
219,3042.0,0.28,0.04,0.93,-4.53,2.55,0.14,28.81
220,3043.0,0.28,0.01,0.9,-6.09,2.53,0.0,28.95
221,3044.0,0.28,0.0,0.9,-2.95,-0.72,-0.58,28.86
222,3045.0,0.26,-0.02,0.91,0.27,-2.41,-0.47,28.95
223,3046.0,0.25,-0.03,0.92,2.75,-2.41,-1.77,28.81
224,3047.0,0.24,-0.02,0.92,1.56,-3.27,0.37,28.81
225,3048.0,0.25,-0.01,0.92,0.93,-1.65,0.7,28.86
226,3049.0,0.26,0.0,0.93,-1.21,-0.23,0.75,28.86
227,3050.0,0.26,0.0,0.92,0.5,-0.37,3.36,28.91
228,3051.0,0.26,0.0,0.93,0.67,-1.91,3.51,28.81
229,3052.0,0.26,0.01,0.93,-1.07,0.27,3.57,28.86
230,3053.0,0.24,0.0,0.93,-2.92,0.81,4.5,28.86
231,3054.0,0.25,-0.01,0.91,-5.04,0.96,4.02,28.81
232,3055.0,0.26,0.0,0.9,-9.76,2.46,5.42,28.91
233,3056.0,0.27,0.01,0.89,-10.98,0.32,4.21,28.86
