,Sample Num,acc_x,acc_y,acc_z,gyro_x,gyro_y,gyro_z,temp
0,1.0,,,,,,,
1,2.0,0.12,0.12,0.99,5.98,-1.4,3.05,27.35
2,3.0,0.1,0.11,0.98,4.5,0.79,3.01,27.35
3,4.0,0.11,0.11,0.97,1.68,1.83,2.41,27.26
4,5.0,0.12,0.12,0.96,-0.38,0.73,0.56,27.35
5,6.0,0.12,0.12,0.98,-1.15,0.44,1.27,27.21
6,7.0,0.11,0.12,0.96,-0.82,0.7,1.39,27.31
7,8.0,0.11,0.12,0.96,-1.8,1.45,0.66,27.4
8,9.0,0.11,0.11,0.95,-1.86,1.47,-0.11,27.35
9,10.0,0.12,0.1,0.95,0.17,-0.35,1.95,27.35
10,11.0,0.12,0.09,0.95,4.17,-1.04,3.92,27.31
11,12.0,0.11,0.1,0.95,6.82,-1.76,4.95,27.31
12,13.0,0.11,0.11,0.98,9.59,-2.0,6.52,27.4
13,14.0,0.12,0.11,0.98,9.28,-1.08,4.08,27.35
14,15.0,0.11,0.12,0.98,5.86,0.12,1.44,27.35
15,16.0,0.11,0.13,0.97,0.87,0.41,0.0,27.35
16,17.0,0.12,0.13,0.97,-1.59,0.2,-0.24,27.31
17,18.0,0.13,0.13,0.96,-1.89,0.05,-0.49,27.31
18,19.0,0.12,0.13,0.97,1.04,-0.4,1.15,27.35
19,20.0,0.12,0.13,0.98,0.81,0.12,0.98,27.45
20,21.0,0.11,0.12,0.97,-1.74,0.89,0.44,27.45
21,22.0,0.11,0.11,0.97,-4.84,0.99,0.32,27.35
22,23.0,0.12,0.11,0.97,-5.42,0.46,-0.18,27.31
23,24.0,0.12,0.1,0.97,-6.35,1.01,-1.77,27.4
24,25.0,0.12,0.12,0.97,-6.14,-0.35,-1.34,27.35
25,26.0,0.13,0.12,0.97,-3.83,-1.01,-0.78,27.35
26,27.0,0.13,0.12,0.97,-1.54,-0.41,-1.28,27.31
27,28.0,0.11,0.11,0.97,0.43,-0.84,-1.36,27.31
28,29.0,0.13,0.09,0.96,-0.72,-1.01,-2.4,27.4
29,30.0,0.12,0.09,0.97,-1.16,-1.37,-1.86,27.35
30,31.0,0.13,0.1,0.98,-0.7,-1.54,-1.91,27.45
31,32.0,0.12,0.11,0.98,0.98,-1.27,1.4,27.35
32,33.0,0.12,0.11,0.98,2.18,0.09,1.47,27.31
33,34.0,0.11,0.11,0.97,2.27,1.01,1.68,27.4
34,35.0,0.12,0.11,0.95,1.11,1.66,2.79,27.31
35,36.0,0.13,0.1,0.94,1.08,0.15,1.94,27.45
36,37.0,0.12,0.1,0.94,0.55,-1.02,2.11,27.35
37,38.0,0.12,0.12,0.97,-0.55,-1.33,1.16,27.31
38,39.0,0.12,0.14,0.97,-2.58,-1.5,-0.76,27.31
39,40.0,0.13,0.14,0.97,-3.19,-0.6,-0.93,27.4
40,41.0,0.12,0.14,0.95,0.35,-1.6,1.25,27.35
41,42.0,0.12,0.13,0.95,6.92,-3.22,2.72,27.35
42,43.0,0.13,0.12,0.95,11.88,-3.54,2.87,27.35
43,44.0,0.12,0.12,0.99,11.92,-4.27,2.5,27.45
44,45.0,0.12,0.11,1.0,6.67,-3.68,0.2,27.4
45,46.0,0.12,0.1,1.0,-0.02,-2.32,-0.34,27.31
46,47.0,0.13,0.1,0.99,-2.79,-0.2,-1.66,27.45
47,48.0,0.12,0.1,0.97,-1.48,-0.09,-0.75,27.26
48,49.0,0.13,0.1,0.95,3.33,-1.13,1.02,27.45
49,50.0,0.11,0.11,0.97,8.32,-2.23,2.52,27.4
50,51.0,0.12,0.11,0.97,10.23,-1.82,1.59,27.31
51,52.0,0.1,0.1,0.98,7.62,-0.61,0.47,27.45
52,53.0,0.11,0.09,0.97,2.95,-0.18,0.5,27.45
53,54.0,0.12,0.09,0.97,0.14,-1.44,0.17,27.26
54,55.0,0.12,0.11,0.96,-0.78,-1.08,1.28,27.21
55,56.0,0.13,0.11,0.96,-1.01,-0.66,1.77,27.4
56,57.0,0.12,0.12,0.96,-0.64,-1.85,3.21,27.31
57,58.0,0.12,0.13,0.96,2.06,-1.57,3.76,27.35
58,59.0,0.13,0.13,0.95,5.11,-0.34,3.83,27.35
59,60.0,0.13,0.12,0.95,6.93,-1.19,3.31,27.45
60,61.0,0.14,0.14,0.96,5.08,-3.13,2.55,27.4
61,62.0,0.14,0.12,0.98,2.0,-3.53,1.54,27.4
62,63.0,0.14,0.13,1.0,2.03,-3.45,2.35,27.4
63,64.0,0.13,0.15,0.99,2.98,-2.44,1.86,27.45
64,65.0,0.13,0.15,0.98,4.52,0.58,1.97,27.45
65,66.0,0.13,0.14,0.97,3.91,1.82,1.11,27.35
66,67.0,0.13,0.12,0.97,3.4,1.01,0.75,27.35
67,68.0,0.12,0.12,0.96,2.96,0.9,1.39,27.4
68,69.0,0.13,0.11,0.95,2.35,1.63,-0.06,27.35
69,70.0,0.14,0.12,0.97,-0.7,0.6,-2.14,27.45
70,71.0,0.13,0.13,0.98,-3.3,0.12,-2.08,27.45
71,72.0,0.12,0.13,0.97,-3.01,0.67,-0.81,27.4
72,73.0,0.12,0.14,0.97,2.14,1.25,1.44,27.4
73,74.0,0.12,0.13,0.95,4.99,2.53,0.37,27.4
74,75.0,0.13,0.13,0.92,3.83,2.15,-0.61,27.35
75,76.0,0.13,0.12,0.92,1.31,-1.48,-0.29,27.35
76,77.0,0.13,0.12,0.94,2.92,-3.44,0.82,27.35
77,78.0,0.13,0.11,0.94,7.15,-2.69,2.44,27.31
78,79.0,0.14,0.12,0.96,8.95,-1.54,2.05,27.4
79,80.0,0.13,0.13,0.95,7.65,-1.77,1.82,27.31
80,81.0,0.11,0.13,0.95,3.66,-1.39,0.98,27.45
81,82.0,0.13,0.13,0.93,0.49,-0.9,-1.5,27.35
82,83.0,0.14,0.14,0.94,-0.06,-2.58,0.24,27.45
83,84.0,0.13,0.14,0.93,-0.93,-4.08,-1.39,27.4
84,85.0,0.13,0.14,0.96,1.76,-4.41,-1.42,27.4
85,86.0,0.13,0.14,0.95,4.29,-3.91,-0.63,27.35
86,87.0,0.12,0.13,0.96,4.09,-2.81,-2.44,27.35
87,88.0,0.11,0.14,0.96,2.37,-2.49,-1.44,27.45
88,89.0,0.12,0.12,0.94,-1.31,-2.18,-2.81,27.45
89,90.0,0.1,0.12,0.95,2.15,-3.01,-0.2,27.4
90,91.0,0.14,0.12,0.92,4.35,-2.47,-1.56,27.4
91,92.0,0.16,0.09,0.92,-0.09,-3.05,-4.09,27.35
92,93.0,0.14,0.14,0.94,2.11,-8.47,-1.76,27.35
93,94.0,0.16,0.11,0.96,4.78,-9.3,-6.92,27.35
94,95.0,0.15,0.11,1.0,11.68,-8.02,-5.59,27.4
95,96.0,0.15,0.12,0.97,17.51,-8.41,-6.49,27.4
96,97.0,0.17,0.12,0.99,27.19,-10.93,-4.67,27.4
97,98.0,0.18,0.14,0.95,38.41,-10.14,5.68,27.45
98,99.0,0.18,0.17,0.99,49.47,-6.49,15.1,27.35
99,100.0,0.27,0.18,1.0,41.59,-2.75,8.32,27.45
100,101.0,0.32,0.18,0.99,31.18,-4.4,1.57,27.4
101,102.0,0.41,0.15,0.98,21.13,-13.71,-15.27,27.31
102,103.0,0.43,0.17,0.99,31.73,-24.93,-16.24,27.4
103,104.0,0.49,0.22,0.98,23.5,-19.56,-19.21,27.45
104,105.0,0.5,0.18,1.05,-0.67,-16.69,-30.31,27.45
105,106.0,0.56,0.19,1.01,-24.64,-18.23,-30.06,27.4
106,107.0,0.68,0.12,1.08,-54.89,-15.71,-38.95,27.4
107,108.0,0.81,0.1,1.14,-57.33,-11.05,-24.7,27.49
108,109.0,1.03,0.06,1.25,-35.91,-9.08,-15.91,27.45
109,110.0,1.11,0.05,1.22,3.62,-11.51,-14.89,27.35
110,111.0,1.2,0.03,1.21,39.89,-5.92,-7.76,27.35
111,112.0,1.34,-0.01,1.16,47.18,3.27,-17.04,27.45
112,113.0,1.44,-0.03,1.06,41.25,1.86,-22.99,27.4
113,114.0,1.58,-0.05,0.97,25.62,-4.44,-28.89,27.4
114,115.0,1.64,-0.11,0.83,30.76,-17.83,-25.33,27.45
115,116.0,1.68,-0.16,0.74,38.47,-28.67,-37.66,27.35
116,117.0,1.65,-0.18,0.75,45.02,-33.37,-44.61,27.45
117,118.0,1.68,-0.15,0.77,36.41,-37.56,-49.08,27.31
118,119.0,1.74,-0.15,0.72,21.22,-45.71,-69.86,27.4
119,120.0,1.72,-0.06,0.76,8.47,-65.89,-84.75,27.45
120,121.0,1.65,0.1,0.81,-5.02,-76.66,-99.66,27.35
121,122.0,1.5,0.23,0.95,6.11,-77.53,-104.79,27.45
122,123.0,1.42,0.29,1.01,18.32,-71.07,-119.04,27.4
123,124.0,1.31,0.25,1.03,24.17,-64.29,-152.78,27.4
124,125.0,1.12,0.19,1.19,5.77,-62.46,-194.26,27.4
125,126.0,1.09,0.19,1.08,-31.18,-53.24,-228.29,27.35
126,127.0,0.97,0.13,0.97,-59.54,-58.63,-282.29,27.35
127,128.0,0.81,0.02,0.82,-71.24,-57.11,-319.36,27.35
128,129.0,0.3,-0.46,0.87,-89.44,-34.81,-398.23,27.49
129,130.0,0.19,-0.61,0.88,-118.66,-25.39,-405.3,27.4
130,131.0,-0.19,-0.84,0.81,-153.92,-33.37,-381.59,27.4
131,132.0,-0.56,-0.91,0.65,-130.14,-48.4,-329.25,27.35
132,133.0,-0.85,-0.98,0.49,-22.21,-59.66,-277.94,27.35
133,134.0,-1.25,-1.11,0.55,111.07,-44.99,-258.81,27.45
134,135.0,-1.55,-1.19,0.7,181.3,-22.87,-215.88,27.45
135,136.0,-1.58,-1.14,0.72,127.3,-23.37,-176.4,27.31
136,137.0,-1.66,-0.9,0.83,7.6,-46.81,-145.71,27.45
137,138.0,-1.63,-0.66,1.07,-54.69,-62.61,-125.59,27.35
138,139.0,-1.44,-0.39,1.17,-55.1,-31.95,-131.18,27.45
139,140.0,-1.4,-0.42,1.22,-28.85,-11.68,-150.18,27.4
140,141.0,-1.17,-0.26,1.27,-54.41,-2.67,-176.55,27.49
141,142.0,-1.03,-0.23,1.38,-107.98,9.4,-183.33,27.4
142,143.0,-0.94,-0.35,1.39,-183.04,23.94,-172.06,27.45
143,144.0,-0.85,-0.49,1.47,-220.7,25.94,-154.84,27.45
144,145.0,-0.84,-0.51,1.41,-179.66,21.98,-112.05,27.31
145,146.0,-0.69,-0.34,1.44,-105.54,27.77,-53.37,27.4
146,147.0,-0.61,-0.22,1.36,-23.77,38.29,-0.47,27.4
147,148.0,-0.48,-0.12,1.18,28.5,48.09,25.19,27.45
148,149.0,-0.38,-0.01,1.08,41.62,37.77,39.71,27.45
149,150.0,-0.31,0.06,1.06,31.77,22.63,21.13,27.45
150,151.0,-0.2,0.18,1.06,4.67,26.43,3.47,27.49
151,152.0,-0.16,0.21,1.02,-17.27,29.25,-13.18,27.4
152,153.0,-0.15,0.23,1.0,-33.25,23.4,-18.14,27.45
153,154.0,-0.12,0.23,0.95,-58.2,31.42,-38.21,27.45
154,155.0,-0.09,0.22,0.93,-76.95,23.45,-45.04,27.35
155,156.0,-0.09,0.19,0.92,-75.44,15.74,-48.06,27.35
156,157.0,-0.08,0.24,0.94,-66.31,12.35,-30.72,27.49
157,158.0,-0.08,0.19,0.97,-35.57,8.31,-12.12,27.31
158,159.0,-0.07,0.19,0.96,8.24,2.32,15.08,27.45
159,160.0,-0.06,0.18,0.97,39.45,5.56,33.77,27.54
160,161.0,-0.04,0.14,0.94,64.5,4.7,43.5,27.4
161,162.0,-0.01,0.14,0.96,69.4,-1.18,45.83,27.4
162,163.0,0.0,0.13,0.99,62.72,-1.53,37.3,27.4
163,164.0,-0.02,0.1,1.01,31.11,3.57,12.23,27.45
164,165.0,0.0,0.13,1.01,2.37,5.89,2.78,27.54
165,166.0,0.03,0.15,1.0,-25.33,5.73,-8.58,27.54
166,167.0,0.02,0.17,0.96,-41.05,6.67,-13.76,27.4
167,168.0,0.03,0.18,0.98,-47.53,8.34,-17.69,27.4
168,169.0,0.01,0.21,1.01,-41.53,8.52,-11.71,27.49
169,170.0,0.02,0.19,1.05,-26.89,9.36,-3.77,27.45
170,171.0,0.02,0.14,1.05,0.41,8.58,9.66,27.45
171,172.0,0.02,0.13,1.05,31.73,6.53,18.35,27.49
172,173.0,0.02,0.12,1.01,54.99,10.2,27.07,27.4
173,174.0,0.01,0.1,0.94,59.65,12.96,30.81,27.49
174,175.0,0.02,0.11,0.88,36.35,11.15,23.39,27.45
175,176.0,0.03,0.13,0.88,9.4,2.44,12.7,27.45
176,177.0,0.02,0.15,0.89,-7.54,-1.59,6.18,27.45
177,178.0,0.03,0.14,0.94,-9.39,-2.72,0.44,27.45
178,179.0,0.02,0.16,1.01,-4.31,-4.85,-0.05,27.4
179,180.0,0.02,0.17,1.06,-5.63,1.85,-2.18,27.4
180,181.0,0.02,0.16,1.05,-10.7,6.81,-3.82,27.45
181,182.0,-0.0,0.15,1.03,-6.92,4.98,0.14,27.45
182,183.0,0.02,0.14,0.99,0.64,8.41,3.63,27.4
183,184.0,0.01,0.15,0.97,5.33,10.52,7.34,27.4
184,185.0,0.02,0.18,0.95,6.58,8.0,11.01,27.4
185,186.0,0.04,0.19,0.96,4.53,6.35,12.29,27.45
186,187.0,0.06,0.2,0.96,3.66,6.02,4.53,27.45
187,188.0,0.05,0.23,0.96,3.24,7.07,1.6,27.45
188,189.0,0.06,0.22,0.95,-0.82,8.11,-1.31,27.31
189,190.0,0.05,0.23,0.96,-3.15,5.82,-2.53,27.4
190,191.0,0.03,0.22,0.94,-6.67,7.13,-4.76,27.49
191,192.0,0.03,0.2,0.94,-6.84,6.73,-2.89,27.45
192,193.0,0.02,0.21,0.94,-3.68,1.85,-3.04,27.35
193,194.0,0.03,0.19,0.91,-1.16,3.01,-4.35,27.4
194,195.0,0.01,0.15,0.89,-2.29,3.02,-5.54,27.4
195,196.0,0.01,0.14,0.88,-5.97,-1.36,-6.76,27.49
196,197.0,0.0,0.14,0.89,-8.95,-4.99,-7.86,27.54
197,198.0,0.01,0.14,0.93,-7.18,-7.48,-6.82,27.54
198,199.0,0.01,0.15,0.98,-2.17,-8.35,-4.79,27.45
199,200.0,0.0,0.15,1.01,5.83,-5.39,-0.02,27.35
200,201.0,0.01,0.15,1.02,11.02,-3.24,3.15,27.4
201,202.0,0.0,0.15,1.03,13.83,-1.45,4.66,27.45
202,203.0,0.0,0.14,1.0,15.02,1.28,8.67,27.45
203,204.0,0.02,0.14,0.96,14.03,3.74,9.77,27.45
204,205.0,0.02,0.13,0.89,11.56,2.64,11.28,27.4
205,206.0,0.01,0.13,0.9,10.63,-2.05,13.1,27.4
206,207.0,0.03,0.16,0.91,10.58,-6.61,12.35,27.4
207,208.0,0.03,0.16,1.0,11.01,-8.08,5.77,27.45
208,209.0,0.02,0.17,1.06,10.4,-5.63,1.69,27.45
209,210.0,0.03,0.15,1.07,8.5,0.78,-1.88,27.4
210,211.0,0.01,0.17,1.05,-2.55,4.63,-6.81,27.49
211,212.0,0.01,0.18,1.0,-15.11,10.2,-9.04,27.4
212,213.0,0.02,0.18,0.96,-25.05,11.3,-11.24,27.45
213,214.0,0.02,0.19,0.91,-26.61,8.02,-7.88,27.35
214,215.0,0.04,0.18,0.88,-17.34,3.15,-3.44,27.45
215,216.0,0.05,0.19,0.91,-6.05,-2.05,-2.4,27.49
216,217.0,0.03,0.15,0.95,6.47,-5.68,-1.56,27.4
217,218.0,0.01,0.15,0.95,10.84,-5.48,0.47,27.49
218,219.0,-0.0,0.16,0.97,9.3,-4.35,1.37,27.35
219,220.0,0.01,0.16,0.95,3.34,-2.75,1.71,27.35
220,221.0,0.01,0.17,0.93,-0.63,-2.6,2.37,27.45
221,222.0,0.03,0.18,0.91,2.05,-4.31,4.85,27.4
222,223.0,0.03,0.18,0.93,9.11,-7.08,4.63,27.49
223,224.0,0.04,0.16,0.94,15.44,-8.03,3.74,27.45
224,225.0,0.02,0.14,0.97,20.76,-9.53,5.63,27.35
225,226.0,0.01,0.17,1.02,15.56,-6.24,4.24,27.45
226,227.0,0.01,0.19,1.03,6.66,-0.85,1.89,27.49
227,228.0,0.0,0.2,1.02,-0.09,2.05,2.53,27.49
228,229.0,0.03,0.2,0.97,-7.13,5.97,1.21,27.45
229,230.0,0.04,0.19,0.93,-10.56,6.15,2.52,27.45
230,231.0,0.04,0.18,0.92,-9.59,1.27,4.49,27.45
231,232.0,0.03,0.18,0.97,-5.73,-2.87,4.93,27.49
232,233.0,0.02,0.18,0.98,2.18,-0.99,6.37,27.49
233,234.0,0.02,0.17,0.99,6.08,0.69,4.93,27.49
234,235.0,0.01,0.17,0.99,4.37,3.13,4.96,27.45
235,236.0,0.03,0.17,0.95,-2.14,5.13,2.43,27.54
236,237.0,0.03,0.18,0.95,-5.16,1.89,1.34,27.4
237,238.0,0.03,0.19,0.93,-2.34,-1.1,0.64,27.49
238,239.0,0.04,0.19,0.93,0.69,-0.7,-2.96,27.4
239,240.0,0.01,0.2,0.95,-0.76,-0.84,-5.1,27.45
240,241.0,0.01,0.19,0.94,-6.92,-0.02,-7.01,27.45
241,242.0,0.01,0.18,0.93,-11.71,0.32,-6.46,27.45
242,243.0,0.0,0.18,0.93,-11.13,-0.78,-2.81,27.45
243,244.0,0.02,0.18,0.91,-7.02,-0.14,0.96,27.49
244,245.0,0.02,0.15,0.92,-0.9,-1.47,2.03,27.45
245,246.0,0.01,0.16,0.96,2.12,-3.01,2.73,27.45
246,247.0,0.0,0.16,0.96,1.01,-1.65,3.27,27.54
247,248.0,0.01,0.17,0.97,-2.58,-1.19,3.51,27.49
248,249.0,0.01,0.17,0.95,-3.69,-1.36,2.43,27.4
249,250.0,0.03,0.17,0.95,-3.92,-2.21,3.4,27.45
250,251.0,0.02,0.15,0.91,0.24,-4.49,4.49,27.45
251,252.0,0.04,0.14,0.95,5.31,-9.07,2.18,27.54
252,253.0,0.01,0.16,1.0,5.48,-8.44,1.42,27.49
253,254.0,0.02,0.16,1.02,3.92,-5.5,0.79,27.4
254,255.0,0.01,0.15,1.03,1.69,-5.24,1.57,27.49
255,256.0,0.02,0.15,1.02,-3.88,-0.73,0.21,27.45
256,257.0,0.02,0.16,1.01,-10.31,1.57,-0.2,27.45
257,258.0,0.03,0.16,1.0,-12.27,-0.56,-0.2,27.49
258,259.0,0.03,0.17,0.99,-9.16,-0.7,1.18,27.49
259,260.0,0.04,0.17,0.98,-2.5,0.46,2.52,27.49
260,261.0,0.02,0.17,1.0,7.27,-2.32,4.75,27.45
261,262.0,0.03,0.18,1.0,13.47,-0.76,4.5,27.45
262,263.0,0.03,0.18,0.99,14.02,0.87,3.18,27.45
263,264.0,0.02,0.17,1.0,9.39,-0.63,0.46,27.54
264,265.0,0.02,0.17,0.98,4.56,0.37,-0.03,27.59
265,266.0,0.02,0.16,0.95,-0.92,3.05,1.13,27.49
266,267.0,0.02,0.15,0.95,-5.25,1.89,0.69,27.54
267,268.0,0.02,0.16,0.95,-9.89,0.6,1.48,27.54
268,269.0,0.02,0.16,0.94,-11.4,0.7,2.81,27.49
269,270.0,0.04,0.15,0.92,-5.97,-2.9,4.03,27.4
270,271.0,0.04,0.15,0.94,3.4,-7.47,3.88,27.4
271,272.0,0.03,0.17,0.98,9.82,-7.16,5.73,27.45
272,273.0,0.04,0.18,1.0,9.36,-3.1,6.14,27.45
273,274.0,0.03,0.15,1.01,3.8,-2.44,3.57,27.45
274,275.0,0.02,0.16,1.0,-5.36,-2.55,0.26,27.49
275,276.0,0.03,0.16,1.0,-10.0,-0.93,-0.41,27.4
276,277.0,0.04,0.17,0.98,-8.79,-0.38,0.26,27.49
277,278.0,0.05,0.17,0.96,-5.28,-0.38,-1.31,27.54
278,279.0,0.06,0.17,0.96,-3.11,-2.15,-3.07,27.45
279,280.0,0.04,0.16,1.0,-1.01,-4.85,-2.75,27.49
280,281.0,0.03,0.15,1.02,0.66,-3.19,-2.12,27.49
281,282.0,0.03,0.14,1.01,-1.15,1.98,-2.03,27.49
282,283.0,0.02,0.15,1.0,-5.79,5.33,-1.62,27.54
283,284.0,0.03,0.16,0.97,-6.81,6.31,1.86,27.54
284,285.0,0.04,0.15,0.94,-4.41,6.84,3.16,27.54
285,286.0,0.02,0.16,0.95,-0.31,6.02,3.83,27.59
286,287.0,0.03,0.16,0.95,1.37,5.01,1.45,27.59
287,288.0,0.03,0.16,0.93,0.78,3.77,2.46,27.54
288,289.0,0.02,0.15,0.94,1.66,-0.05,2.67,27.45
289,290.0,0.02,0.16,0.95,-0.38,2.21,2.17,27.54
290,291.0,0.02,0.15,0.92,-3.91,5.02,1.74,27.49
291,292.0,0.02,0.16,0.91,-5.19,1.24,2.66,27.49
292,293.0,0.03,0.17,0.91,-3.4,-1.13,3.34,27.45
293,294.0,0.02,0.17,0.92,0.17,-2.05,2.14,27.54
294,295.0,0.03,0.17,0.93,2.73,-3.01,0.31,27.54
295,296.0,0.02,0.15,0.94,1.37,-3.56,0.14,27.59
296,297.0,0.02,0.15,0.95,-1.51,-4.34,-0.08,27.4
297,298.0,0.02,0.14,0.95,-4.56,-3.88,-0.05,27.59
298,299.0,0.02,0.14,0.95,-2.53,-4.06,2.23,27.35
299,300.0,0.03,0.14,0.95,0.87,-4.67,5.21,27.45
300,301.0,0.03,0.13,0.97,3.97,-4.49,5.28,27.4
301,302.0,0.04,0.14,0.99,4.63,-5.3,5.36,27.49
302,303.0,0.03,0.15,1.0,1.07,-4.24,4.63,27.59
303,304.0,0.04,0.13,1.01,-4.21,-3.42,2.95,27.54
304,305.0,0.06,0.14,1.01,-6.26,-4.98,1.94,27.45
305,306.0,0.05,0.15,1.03,-3.31,-5.79,3.54,27.54
306,307.0,0.06,0.16,1.03,1.42,-3.05,4.9,27.49
307,308.0,0.06,0.15,1.03,3.6,-1.51,4.81,27.59
308,309.0,0.06,0.16,1.03,3.24,-1.24,5.48,27.45
309,310.0,0.06,0.15,1.02,0.31,0.26,6.02,27.54
310,311.0,0.06,0.15,1.02,-3.51,2.79,3.21,27.54
311,312.0,0.06,0.15,0.99,-8.12,3.25,1.82,27.59
312,313.0,0.06,0.16,0.98,-11.01,2.78,-0.37,27.4
313,314.0,0.05,0.16,1.0,-11.71,2.4,1.02,27.54
314,315.0,0.05,0.17,0.97,-8.43,2.47,1.44,27.54
315,316.0,0.05,0.17,0.95,-5.48,2.23,2.0,27.54
316,317.0,0.05,0.15,0.92,-2.89,2.61,1.13,27.49
317,318.0,0.05,0.14,0.91,-1.4,1.39,2.72,27.49
318,319.0,0.06,0.14,0.9,0.12,-1.48,4.17,27.68
319,320.0,0.05,0.15,0.95,1.92,-2.32,5.54,27.54
320,321.0,0.03,0.14,0.95,5.48,-1.15,5.82,27.54
321,322.0,0.02,0.16,0.97,8.24,-0.12,6.34,27.49
322,323.0,0.01,0.17,0.97,2.76,3.6,5.08,27.49
323,324.0,0.02,0.16,0.94,-2.96,5.37,3.98,27.49
324,325.0,0.01,0.16,0.93,-5.92,1.27,2.76,27.54
325,326.0,0.03,0.16,0.94,-2.92,0.32,1.5,27.64
326,327.0,0.01,0.16,0.94,1.33,1.83,1.63,27.45
327,328.0,0.02,0.16,0.97,6.55,0.53,3.8,27.49
328,329.0,0.0,0.14,0.97,6.53,0.56,4.55,27.59
329,330.0,0.0,0.13,0.99,1.45,3.02,2.7,27.45
330,331.0,-0.01,0.13,1.0,-3.83,3.51,1.92,27.45
331,332.0,-0.0,0.12,0.98,-6.81,5.02,3.97,27.64
332,333.0,0.0,0.11,0.97,-5.15,6.06,5.71,27.59
333,334.0,0.02,0.09,0.94,-3.94,4.17,6.55,27.59
334,335.0,0.02,0.09,0.94,-2.08,0.6,7.25,27.59
335,336.0,0.03,0.09,0.98,1.13,-1.6,9.11,27.64
336,337.0,0.04,0.1,0.98,1.73,-1.19,7.25,27.64
337,338.0,0.05,0.09,0.99,0.75,-0.37,6.06,27.49
338,339.0,0.06,0.1,1.01,-0.69,-1.77,6.03,27.59
339,340.0,0.07,0.11,1.01,-1.19,-2.14,4.75,27.59
340,341.0,0.09,0.11,1.01,-0.98,1.07,3.47,27.64
341,342.0,0.08,0.12,0.99,-2.09,0.9,3.51,27.45
342,343.0,0.09,0.14,0.98,-4.18,-1.25,2.38,27.54
343,344.0,0.09,0.14,0.98,-7.42,-1.15,2.17,27.59
344,345.0,0.09,0.17,0.99,-7.19,-0.12,5.05,27.49
345,346.0,0.09,0.17,1.0,-3.85,0.92,5.88,27.54
346,347.0,0.1,0.18,0.99,-1.37,2.53,5.11,27.54
347,348.0,0.09,0.2,1.0,0.63,1.89,4.21,27.64
348,349.0,0.09,0.2,1.01,1.92,1.89,1.88,27.64
349,350.0,0.08,0.21,0.99,1.34,4.5,0.43,27.49
350,351.0,0.06,0.2,0.99,0.05,5.79,-2.4,27.59
351,352.0,0.05,0.18,0.97,-1.68,5.85,-4.43,27.64
352,353.0,0.04,0.18,0.94,-2.69,7.24,-3.53,27.54
353,354.0,0.04,0.18,0.92,-2.67,6.58,-3.69,27.68
354,355.0,0.04,0.19,0.9,-1.08,3.88,-4.26,27.59
355,356.0,0.04,0.19,0.89,1.91,2.17,-3.98,27.59
356,357.0,0.03,0.18,0.92,4.5,-0.23,-4.44,27.54
357,358.0,0.02,0.16,0.94,5.98,-1.51,-5.51,27.64
358,359.0,0.0,0.15,0.94,3.57,-0.09,-5.15,27.49
359,360.0,0.0,0.14,0.95,0.24,-0.7,-2.84,27.49
360,361.0,-0.0,0.13,0.94,1.94,-2.67,-1.04,27.59
361,362.0,-0.01,0.11,0.95,5.42,-1.48,1.21,27.64
362,363.0,-0.0,0.09,0.93,8.18,-0.14,2.61,27.54
363,364.0,-0.01,0.09,0.96,7.63,-1.88,2.0,27.54
364,365.0,-0.01,0.1,0.97,2.09,-2.31,-0.95,27.59
365,366.0,-0.0,0.11,1.0,-1.34,-1.89,-0.93,27.59
366,367.0,0.01,0.12,0.99,-1.79,-1.85,-1.21,27.54
367,368.0,0.01,0.11,0.99,2.0,-0.63,-0.12,27.64
368,369.0,0.01,0.11,1.01,4.26,-0.43,0.49,27.64
369,370.0,0.02,0.11,1.01,3.42,0.4,0.14,27.54
370,371.0,0.01,0.12,1.02,-0.34,2.24,-0.24,27.59
371,372.0,0.02,0.12,1.01,-3.15,3.51,-0.38,27.49
372,373.0,0.03,0.13,1.01,-5.28,4.9,-0.49,27.54
373,374.0,0.04,0.13,0.99,-5.86,5.74,-0.99,27.64
